{
  "resourceType": "Bundle",
  "type": "transaction",
  "entry": [
    {
      "fullUrl": "https://hapi.fhir.tw/fhir/Organization/0c2f2ede-83a6-4865-ac9e-09f911bf27fe",
      "resource": {
        "resourceType": "Organization",
        "id": "0c2f2ede-83a6-4865-ac9e-09f911bf27fe",
        "name": "測試醫院",
        "alias": [
          "Test Hospital"
        ],
        "telecom": [
          {
            "system": "phone",
            "value": "02-12345678",
            "use": "work"
          }
        ],
        "address": [
          {
            "use": "work",
            "type": "both",
            "text": "台北市測試區測試路123號",
            "line": [
              "測試路123號"
            ],
            "city": "台北市",
            "district": "測試區",
            "postalCode": "123456"
          }
        ]
      },
      "request": {
        "method": "PUT",
        "url": "Organization/0c2f2ede-83a6-4865-ac9e-09f911bf27fe"
      }
    },
    {
      "fullUrl": "https://hapi.fhir.tw/fhir/Patient/87c483f1-ccf2-4924-9c1f-f49783b7b0f3",
      "resource": {
        "resourceType": "Patient",
        "id": "patient-P001",
        "managingOrganization": {
          "reference": "Organization/0c2f2ede-83a6-4865-ac9e-09f911bf27fe"
        },
        "birthDate": "1980-01-01",
        "gender": "male",
        "name": [
          {
            "use": "official",
            "text": "張 三",
            "family": "張",
            "given": [
              "三"
            ]
          }
        ]
      },
      "request": {
        "method": "PUT",
        "url": "/Patient/87c483f1-ccf2-4924-9c1f-f49783b7b0f3"
      }
    },
    {
      "fullUrl": "https://hapi.fhir.tw/fhir/Observation/067fce5b-5af8-42da-ab39-635b48db966e",
      "resource": {
        "resourceType": "Observation",
        "id": "067fce5b-5af8-42da-ab39-635b48db966e",
        "subject": {
          "reference": "Patient/patient-P003"
        },
        "status": "final",
        "code": {
          "coding": [
            {
              "system": "https://www.vghtc.gov.tw/",
              "code": "TEST-00001",
              "display": "測試數據"
            }
          ],
          "text": "測試數據"
        },
        "component": [
          {
            "code": {
              "coding": [
                {
                  "system": "http://loinc.org",
                  "code": "77176-0",
                  "display": "血型"
                }
              ]
            },
            "valueString": "A"
          }
        ]
      },
      "request": {
        "method": "PUT",
        "url": "/Observation/067fce5b-5af8-42da-ab39-635b48db966e"
      }
    },
    {
      "fullUrl": "https://hapi.fhir.tw/fhir/Patient/a0e770a3-47d7-490d-b6eb-aab957bbfa2c",
      "resource": {
        "resourceType": "Patient",
        "id": "patient-P002",
        "managingOrganization": {
          "reference": "Organization/0c2f2ede-83a6-4865-ac9e-09f911bf27fe"
        },
        "birthDate": "1990-05-15",
        "gender": "female",
        "name": [
          {
            "use": "official",
            "text": "李 四",
            "family": "李",
            "given": [
              "四"
            ]
          }
        ]
      },
      "request": {
        "method": "PUT",
        "url": "/Patient/a0e770a3-47d7-490d-b6eb-aab957bbfa2c"
      }
    },
    {
      "fullUrl": "https://hapi.fhir.tw/fhir/Observation/1f298764-0fbd-4e1e-9a59-a2aebc02a11e",
      "resource": {
        "resourceType": "Observation",
        "id": "1f298764-0fbd-4e1e-9a59-a2aebc02a11e",
        "subject": {
          "reference": "Patient/patient-P003"
        },
        "status": "final",
        "code": {
          "coding": [
            {
              "system": "https://www.vghtc.gov.tw/",
              "code": "TEST-00001",
              "display": "測試數據"
            }
          ],
          "text": "測試數據"
        },
        "component": [
          {
            "code": {
              "coding": [
                {
                  "system": "http://loinc.org",
                  "code": "77176-0",
                  "display": "血型"
                }
              ]
            },
            "valueString": "B"
          }
        ]
      },
      "request": {
        "method": "PUT",
        "url": "/Observation/1f298764-0fbd-4e1e-9a59-a2aebc02a11e"
      }
    },
    {
      "fullUrl": "https://hapi.fhir.tw/fhir/Patient/84f0109a-cac6-4e25-b159-d5c3f808a637",
      "resource": {
        "resourceType": "Patient",
        "id": "patient-P003",
        "managingOrganization": {
          "reference": "Organization/0c2f2ede-83a6-4865-ac9e-09f911bf27fe"
        },
        "birthDate": "1975-12-31",
        "gender": "male",
        "name": [
          {
            "use": "official",
            "text": "王 五",
            "family": "王",
            "given": [
              "五"
            ]
          }
        ]
      },
      "request": {
        "method": "PUT",
        "url": "/Patient/84f0109a-cac6-4e25-b159-d5c3f808a637"
      }
    },
    {
      "fullUrl": "https://hapi.fhir.tw/fhir/Observation/1c27548e-375b-4223-83e6-967bdd12896d",
      "resource": {
        "resourceType": "Observation",
        "id": "1c27548e-375b-4223-83e6-967bdd12896d",
        "subject": {
          "reference": "Patient/patient-P003"
        },
        "status": "final",
        "code": {
          "coding": [
            {
              "system": "https://www.vghtc.gov.tw/",
              "code": "TEST-00001",
              "display": "測試數據"
            }
          ],
          "text": "測試數據"
        },
        "component": [
          {
            "code": {
              "coding": [
                {
                  "system": "http://loinc.org",
                  "code": "77176-0",
                  "display": "血型"
                }
              ]
            },
            "valueString": "O"
          }
        ]
      },
      "request": {
        "method": "PUT",
        "url": "/Observation/1c27548e-375b-4223-83e6-967bdd12896d"
      }
    }
  ]
}