{
  "bundle": {
    "resourceType": "Bundle",
    "type": "transaction",
    "entry": [
      {
        "fullUrl": "https://hapi.fhir.org/baseR4/Organization/1dfaec17-baca-4a67-bf95-590a1c840049",
        "resource": {
          "id": "1dfaec17-baca-4a67-bf95-590a1c840049",
          "resourceType": "Organization",
          "name": "Kaohsiung Veterans General Hospital"
        },
        "request": {
          "method": "PUT",
          "url": "Organization/1dfaec17-baca-4a67-bf95-590a1c840049"
        }
      },
      {
        "fullUrl": "https://hapi.fhir.org/baseR4/Patient/8c3a7ce4-3623-4d37-9114-3ad055d33046",
        "resource": {
          "resourceType": "Patient",
          "managingOrganization": {
            "reference": "Organization/1dfaec17-baca-4a67-bf95-590a1c840049"
          },
          "id": "patient-P001",
          "name": [
            {
              "use": "official",
              "text": "Zhang San",
              "family": "Zhang",
              "given": [
                "San"
              ]
            }
          ],
          "birthDate": "1980-01-01",
          "gender": "male"
        },
        "request": {
          "method": "PUT",
          "url": "/Patient/8c3a7ce4-3623-4d37-9114-3ad055d33046"
        }
      },
      {
        "fullUrl": "https://hapi.fhir.org/baseR4/Observation/d4e505ce-2cce-4749-9fc5-921374cece81",
        "resource": {
          "resourceType": "Observation",
          "subject": {
            "reference": "Patient/patient-P001"
          },
          "status": "final",
          "code": {
            "coding": [
              {
                "system": "http://loinc.org",
                "code": "77176-0",
                "display": "Blood Type"
              }
            ],
            "text": "Blood Type Test"
          },
          "id": "d4e505ce-2cce-4749-9fc5-921374cece81",
          "valueString": "A"
        },
        "request": {
          "method": "PUT",
          "url": "/Observation/d4e505ce-2cce-4749-9fc5-921374cece81"
        }
      },
      {
        "fullUrl": "https://hapi.fhir.org/baseR4/Observation/44b61fb0-e059-4a9b-a4e3-090406187d42",
        "resource": {
          "resourceType": "Observation",
          "status": "final",
          "subject": {
            "reference": "Patient/patient-P001"
          },
          "code": {
            "coding": [
              {
                "system": "http://loinc.org",
                "code": "96607-7"
              }
            ],
            "text": "Average Blood Pressure"
          },
          "component": [
            {
              "code": {
                "coding": [
                  {
                    "system": "http://loinc.org",
                    "code": "96608-5"
                  }
                ]
              },
              "valueQuantity": {
                "code": "mm[Hg]",
                "system": "http://unitsofmeasure.org",
                "value": 120
              }
            },
            {
              "code": {
                "coding": [
                  {
                    "system": "http://loinc.org",
                    "code": "96609-3"
                  }
                ]
              },
              "valueQuantity": {
                "code": "mm[Hg]",
                "system": "http://unitsofmeasure.org",
                "value": 80
              }
            },
            {
              "code": {
                "coding": [
                  {
                    "system": " http://snomed.info/sct",
                    "code": "246432004"
                  }
                ]
              },
              "valueQuantity": {
                "value": 1
              }
            }
          ],
          "id": "44b61fb0-e059-4a9b-a4e3-090406187d42"
        },
        "request": {
          "method": "PUT",
          "url": "/Observation/44b61fb0-e059-4a9b-a4e3-090406187d42"
        }
      },
      {
        "fullUrl": "https://hapi.fhir.org/baseR4/Practitioner/20823a8a-6a42-4dd5-ac84-feaa0e63f0c0",
        "resource": {
          "resourceType": "Practitioner",
          "id": "20823a8a-6a42-4dd5-ac84-feaa0e63f0c0",
          "identifier": [
            {
              "value": "R123456789"
            }
          ]
        },
        "request": {
          "method": "PUT",
          "url": "/Practitioner/20823a8a-6a42-4dd5-ac84-feaa0e63f0c0"
        }
      },
      {
        "fullUrl": "https://hapi.fhir.org/baseR4/Practitioner/a6f33afe-5e2c-41d4-b7d3-c3099de945bc",
        "resource": {
          "resourceType": "Practitioner",
          "id": "a6f33afe-5e2c-41d4-b7d3-c3099de945bc",
          "identifier": [
            {
              "value": "F123999888"
            }
          ]
        },
        "request": {
          "method": "PUT",
          "url": "/Practitioner/a6f33afe-5e2c-41d4-b7d3-c3099de945bc"
        }
      },
      {
        "fullUrl": "https://hapi.fhir.org/baseR4/ServiceRequest/43a24cf7-9cba-49fe-967a-a1868a93b239",
        "resource": {
          "resourceType": "ServiceRequest",
          "requester": {
            "reference": "Practitioner/20823a8a-6a42-4dd5-ac84-feaa0e63f0c0"
          },
          "performer": {
            "reference": "Practitioner/a6f33afe-5e2c-41d4-b7d3-c3099de945bc"
          },
          "id": "43a24cf7-9cba-49fe-967a-a1868a93b239",
          "identifier": [
            {
              "value": "1234567890"
            }
          ]
        },
        "request": {
          "method": "PUT",
          "url": "/ServiceRequest/43a24cf7-9cba-49fe-967a-a1868a93b239"
        }
      }
    ]
  }
}