{
  "bundle": {
    "resourceType": "Bundle",
    "type": "transaction",
    "entry": [
      {
        "fullUrl": "https://hapi.fhir.org/baseR4/Organization/4f6f3e8e-cb34-4158-9b8b-51d48cc5814e",
        "resource": {
          "id": "4f6f3e8e-cb34-4158-9b8b-51d48cc5814e",
          "resourceType": "Organization",
          "name": "Kaohsiung Veterans General Hospital"
        },
        "request": {
          "method": "PUT",
          "url": "Organization/4f6f3e8e-cb34-4158-9b8b-51d48cc5814e"
        }
      },
      {
        "fullUrl": "https://hapi.fhir.org/baseR4/Patient/3d6cf163-4621-497e-8eb3-cc9ca5d19e58",
        "resource": {
          "resourceType": "Patient",
          "managingOrganization": {
            "reference": "Organization/4f6f3e8e-cb34-4158-9b8b-51d48cc5814e"
          },
          "id": "patient-P001",
          "birthDate": "1980-01-01",
          "gender": "male",
          "name": [
            {
              "use": "official",
              "text": "Zhang San",
              "family": "Zhang",
              "given": [
                "San"
              ]
            }
          ]
        },
        "request": {
          "method": "PUT",
          "url": "/Patient/3d6cf163-4621-497e-8eb3-cc9ca5d19e58"
        }
      },
      {
        "fullUrl": "https://hapi.fhir.org/baseR4/Observation/37af842d-5a7e-4b14-8dcb-b989322d80f6",
        "resource": {
          "resourceType": "Observation",
          "subject": {
            "reference": "Patient/patient-P001"
          },
          "status": "final",
          "code": {
            "coding": [
              {
                "system": "http://loinc.org",
                "code": "77176-0",
                "display": "Blood Type"
              }
            ],
            "text": "Blood Type Test"
          },
          "id": "37af842d-5a7e-4b14-8dcb-b989322d80f6",
          "valueString": "A"
        },
        "request": {
          "method": "PUT",
          "url": "/Observation/37af842d-5a7e-4b14-8dcb-b989322d80f6"
        }
      },
      {
        "fullUrl": "https://hapi.fhir.org/baseR4/Observation/48a03658-fb5b-41d8-90fb-e0f3ea7e8407",
        "resource": {
          "resourceType": "Observation",
          "status": "final",
          "subject": {
            "reference": "Patient/patient-P001"
          },
          "code": {
            "coding": [
              {
                "system": "http://loinc.org",
                "code": "96607-7"
              }
            ],
            "text": "Average Blood Pressure"
          },
          "component": [
            {
              "code": {
                "coding": [
                  {
                    "system": "http://loinc.org",
                    "code": "96608-5"
                  }
                ]
              },
              "valueQuantity": {
                "code": "mm[Hg]",
                "system": "http://unitsofmeasure.org",
                "value": 120
              }
            },
            {
              "code": {
                "coding": [
                  {
                    "system": "http://loinc.org",
                    "code": "96609-3"
                  }
                ]
              },
              "valueQuantity": {
                "code": "mm[Hg]",
                "system": "http://unitsofmeasure.org",
                "value": 80
              }
            },
            {
              "code": {
                "coding": [
                  {
                    "system": " http://snomed.info/sct",
                    "code": "246432004"
                  }
                ]
              },
              "valueQuantity": {
                "value": 1
              }
            }
          ],
          "id": "48a03658-fb5b-41d8-90fb-e0f3ea7e8407"
        },
        "request": {
          "method": "PUT",
          "url": "/Observation/48a03658-fb5b-41d8-90fb-e0f3ea7e8407"
        }
      }
    ]
  }
}