{
  "bundle": {
    "resourceType": "Bundle",
    "type": "transaction",
    "entry": [
      {
        "fullUrl": "https://hapi.fhir.org/baseR4/Organization/faeb2dbc-e0f4-4d27-a64d-5e663ccad886",
        "resource": {
          "id": "faeb2dbc-e0f4-4d27-a64d-5e663ccad886",
          "resourceType": "Organization",
          "name": "Kaohsiung Veterans General Hospital"
        },
        "request": {
          "method": "PUT",
          "url": "Organization/faeb2dbc-e0f4-4d27-a64d-5e663ccad886"
        }
      },
      {
        "fullUrl": "https://hapi.fhir.org/baseR4/Patient/2358b283-8d71-4837-9f16-96692ff09d3f",
        "resource": {
          "resourceType": "Patient",
          "managingOrganization": {
            "reference": "Organization/faeb2dbc-e0f4-4d27-a64d-5e663ccad886"
          },
          "id": "patient-P001",
          "name": [
            {
              "use": "official",
              "text": "Zhang San",
              "family": "Zhang",
              "given": [
                "San"
              ]
            }
          ],
          "birthDate": "1980-01-01",
          "gender": "male"
        },
        "request": {
          "method": "PUT",
          "url": "/Patient/2358b283-8d71-4837-9f16-96692ff09d3f"
        }
      },
      {
        "fullUrl": "https://hapi.fhir.org/baseR4/Observation/59249b29-f902-471e-86be-c14f0f959a5a",
        "resource": {
          "resourceType": "Observation",
          "subject": {
            "reference": "Patient/patient-P001"
          },
          "status": "final",
          "code": {
            "coding": [
              {
                "system": "http://loinc.org",
                "code": "77176-0",
                "display": "Blood Type"
              }
            ],
            "text": "Blood Type Test"
          },
          "id": "59249b29-f902-471e-86be-c14f0f959a5a",
          "valueString": "A"
        },
        "request": {
          "method": "PUT",
          "url": "/Observation/59249b29-f902-471e-86be-c14f0f959a5a"
        }
      },
      {
        "fullUrl": "https://hapi.fhir.org/baseR4/Observation/4e9e64fb-4b7e-4dd2-9391-e235f180b629",
        "resource": {
          "resourceType": "Observation",
          "status": "final",
          "subject": {
            "reference": "Patient/patient-P001"
          },
          "code": {
            "coding": [
              {
                "system": "http://loinc.org",
                "code": "96607-7"
              }
            ],
            "text": "Average Blood Pressure"
          },
          "component": [
            {
              "code": {
                "coding": [
                  {
                    "system": "http://loinc.org",
                    "code": "96608-5"
                  }
                ]
              },
              "valueQuantity": {
                "code": "mm[Hg]",
                "system": "http://unitsofmeasure.org",
                "value": 120
              }
            },
            {
              "code": {
                "coding": [
                  {
                    "system": "http://loinc.org",
                    "code": "96609-3"
                  }
                ]
              },
              "valueQuantity": {
                "code": "mm[Hg]",
                "system": "http://unitsofmeasure.org",
                "value": 80
              }
            },
            {
              "code": {
                "coding": [
                  {
                    "system": " http://snomed.info/sct",
                    "code": "246432004"
                  }
                ]
              },
              "valueQuantity": {
                "value": 1
              }
            }
          ],
          "id": "4e9e64fb-4b7e-4dd2-9391-e235f180b629"
        },
        "request": {
          "method": "PUT",
          "url": "/Observation/4e9e64fb-4b7e-4dd2-9391-e235f180b629"
        }
      }
    ]
  }
}