{
  "bundle": {
    "resourceType": "Bundle",
    "type": "transaction",
    "entry": [
      {
        "fullUrl": "https://hapi.fhir.org/baseR4/Organization/4ff6d6a3-61de-49f4-ab87-ff1d0c308340",
        "resource": {
          "id": "4ff6d6a3-61de-49f4-ab87-ff1d0c308340",
          "resourceType": "Organization",
          "name": "Kaohsiung Veterans General Hospital"
        },
        "request": {
          "method": "PUT",
          "url": "Organization/4ff6d6a3-61de-49f4-ab87-ff1d0c308340"
        }
      },
      {
        "fullUrl": "https://hapi.fhir.org/baseR4/Patient/af97c1dd-7a84-44d7-953c-6a150dc684ab",
        "resource": {
          "resourceType": "Patient",
          "managingOrganization": {
            "reference": "Organization/4ff6d6a3-61de-49f4-ab87-ff1d0c308340"
          },
          "id": "patient-P001",
          "name": [
            {
              "use": "official",
              "text": "Zhang San",
              "family": "Zhang",
              "given": [
                "San"
              ]
            }
          ],
          "birthDate": "1980-01-01",
          "gender": "male"
        },
        "request": {
          "method": "PUT",
          "url": "/Patient/af97c1dd-7a84-44d7-953c-6a150dc684ab"
        }
      },
      {
        "fullUrl": "https://hapi.fhir.org/baseR4/Observation/4090408a-2a8b-4d1b-bb07-8b80f37e0147",
        "resource": {
          "resourceType": "Observation",
          "subject": {
            "reference": "Patient/patient-P001"
          },
          "status": "final",
          "code": {
            "coding": [
              {
                "system": "http://loinc.org",
                "code": "77176-0",
                "display": "Blood Type"
              }
            ],
            "text": "Blood Type Test"
          },
          "id": "4090408a-2a8b-4d1b-bb07-8b80f37e0147",
          "valueString": "A"
        },
        "request": {
          "method": "PUT",
          "url": "/Observation/4090408a-2a8b-4d1b-bb07-8b80f37e0147"
        }
      },
      {
        "fullUrl": "https://hapi.fhir.org/baseR4/Observation/172af659-3907-4fb5-9681-199ad1b5d7e3",
        "resource": {
          "resourceType": "Observation",
          "status": "final",
          "subject": {
            "reference": "Patient/patient-P001"
          },
          "code": {
            "coding": [
              {
                "system": "http://loinc.org",
                "code": "96607-7"
              }
            ],
            "text": "Average Blood Pressure"
          },
          "component": [
            {
              "code": {
                "coding": [
                  {
                    "system": "http://loinc.org",
                    "code": "96608-5"
                  }
                ]
              },
              "valueQuantity": {
                "code": "mm[Hg]",
                "system": "http://unitsofmeasure.org",
                "value": 120
              }
            },
            {
              "code": {
                "coding": [
                  {
                    "system": "http://loinc.org",
                    "code": "96609-3"
                  }
                ]
              },
              "valueQuantity": {
                "code": "mm[Hg]",
                "system": "http://unitsofmeasure.org",
                "value": 80
              }
            },
            {
              "code": {
                "coding": [
                  {
                    "system": " http://snomed.info/sct",
                    "code": "246432004"
                  }
                ]
              },
              "valueQuantity": {
                "value": 1
              }
            }
          ],
          "id": "172af659-3907-4fb5-9681-199ad1b5d7e3"
        },
        "request": {
          "method": "PUT",
          "url": "/Observation/172af659-3907-4fb5-9681-199ad1b5d7e3"
        }
      },
      {
        "fullUrl": "https://hapi.fhir.org/baseR4/Practitioner/a4a30987-e9bf-471f-890d-f82c2c76bce3",
        "resource": {
          "resourceType": "Practitioner",
          "id": "a4a30987-e9bf-471f-890d-f82c2c76bce3",
          "identifier": [
            {
              "value": "R123456789"
            }
          ]
        },
        "request": {
          "method": "PUT",
          "url": "/Practitioner/a4a30987-e9bf-471f-890d-f82c2c76bce3"
        }
      },
      {
        "fullUrl": "https://hapi.fhir.org/baseR4/Practitioner/a50c1f4a-81b1-46c1-8b97-5b3c7e28a15c",
        "resource": {
          "resourceType": "Practitioner",
          "id": "a50c1f4a-81b1-46c1-8b97-5b3c7e28a15c",
          "identifier": [
            {
              "value": "F123999888"
            }
          ]
        },
        "request": {
          "method": "PUT",
          "url": "/Practitioner/a50c1f4a-81b1-46c1-8b97-5b3c7e28a15c"
        }
      },
      {
        "fullUrl": "https://hapi.fhir.org/baseR4/ServiceRequest/2f591dc3-dd59-4d97-815e-25adbb6b5bb4",
        "resource": {
          "resourceType": "ServiceRequest",
          "requester": {
            "reference": "PractitionerRequester/a4a30987-e9bf-471f-890d-f82c2c76bce3"
          },
          "performer": {
            "reference": "PractitionerPerformer/a50c1f4a-81b1-46c1-8b97-5b3c7e28a15c"
          },
          "id": "2f591dc3-dd59-4d97-815e-25adbb6b5bb4",
          "identifier": [
            {
              "value": "1234567890"
            }
          ]
        },
        "request": {
          "method": "PUT",
          "url": "/ServiceRequest/2f591dc3-dd59-4d97-815e-25adbb6b5bb4"
        }
      }
    ]
  }
}