{
  "bundle": {
    "resourceType": "Bundle",
    "type": "transaction",
    "entry": [
      {
        "fullUrl": "https://hapi.fhir.org/baseR4/Organization/19cd378d-a6f3-444a-854b-3d1d5656ea8c",
        "resource": {
          "id": "19cd378d-a6f3-444a-854b-3d1d5656ea8c",
          "resourceType": "Organization",
          "name": "Kaohsiung Veterans General Hospital"
        },
        "request": {
          "method": "PUT",
          "url": "Organization/19cd378d-a6f3-444a-854b-3d1d5656ea8c"
        }
      },
      {
        "fullUrl": "https://hapi.fhir.org/baseR4/Patient/d090e674-7258-44ab-9202-9a2c04e87e7c",
        "resource": {
          "resourceType": "Patient",
          "managingOrganization": {
            "reference": "Organization/19cd378d-a6f3-444a-854b-3d1d5656ea8c"
          },
          "id": "patient-P001",
          "birthDate": "1980-01-01",
          "gender": "male",
          "name": [
            {
              "use": "official",
              "text": "Zhang San",
              "family": "Zhang",
              "given": [
                "San"
              ]
            }
          ]
        },
        "request": {
          "method": "PUT",
          "url": "/Patient/d090e674-7258-44ab-9202-9a2c04e87e7c"
        }
      },
      {
        "fullUrl": "https://hapi.fhir.org/baseR4/Observation/a7c53004-0c67-42d3-b043-5cbd0b7200cf",
        "resource": {
          "resourceType": "Observation",
          "subject": {
            "reference": "Patient/patient-P001"
          },
          "status": "final",
          "code": {
            "coding": [
              {
                "system": "http://loinc.org",
                "code": "77176-0",
                "display": "Blood Type"
              }
            ],
            "text": "Blood Type Test"
          },
          "id": "a7c53004-0c67-42d3-b043-5cbd0b7200cf",
          "valueString": "A"
        },
        "request": {
          "method": "PUT",
          "url": "/Observation/a7c53004-0c67-42d3-b043-5cbd0b7200cf"
        }
      },
      {
        "fullUrl": "https://hapi.fhir.org/baseR4/Observation/cfeb5264-f3bb-4f78-b82e-b71ed87f1efe",
        "resource": {
          "resourceType": "Observation",
          "status": "final",
          "subject": {
            "reference": "Patient/patient-P001"
          },
          "code": {
            "coding": [
              {
                "system": "http://loinc.org",
                "code": "96607-7"
              }
            ],
            "text": "Average Blood Pressure"
          },
          "component": [
            {
              "code": {
                "coding": [
                  {
                    "system": "http://loinc.org",
                    "code": "96608-5"
                  }
                ]
              },
              "valueQuantity": {
                "code": "mm[Hg]",
                "system": "http://unitsofmeasure.org",
                "value": 120
              }
            },
            {
              "code": {
                "coding": [
                  {
                    "system": "http://loinc.org",
                    "code": "96609-3"
                  }
                ]
              },
              "valueQuantity": {
                "code": "mm[Hg]",
                "system": "http://unitsofmeasure.org",
                "value": 80
              }
            },
            {
              "code": {
                "coding": [
                  {
                    "system": " http://snomed.info/sct",
                    "code": "246432004"
                  }
                ]
              },
              "valueQuantity": {
                "value": 1
              }
            }
          ],
          "id": "cfeb5264-f3bb-4f78-b82e-b71ed87f1efe"
        },
        "request": {
          "method": "PUT",
          "url": "/Observation/cfeb5264-f3bb-4f78-b82e-b71ed87f1efe"
        }
      }
    ]
  },
  "validationResults": null
}